Folder: out/CHRISTIFIRE

File: CHRISTIFIRE_S701_tga_N2_v1_devc.csv
s,C,C,kg/m2
Time,"null","null","null"
 0.0000000E+000, 20, 20, 0.01542
 20, 23.04, 22.3559, 0.01542
 39, 26.208, 25.47, 0.01542
 58, 29.28, 28.6436, 0.01542
 77, 32.48, 31.8556, 0.01542
 96, 35.76, 35.1459, 0.01542
 116, 39.04, 38.4232, 0.01542
 135, 42.208, 41.534, 0.01542
 154, 45.28, 44.7008, 0.01542
 173, 48.56, 47.9911, 0.01542
 193, 51.84, 51.2801, 0.01542
 212, 55.04, 54.4785, 0.01542
 231, 58.208, 57.5867, 0.01542
 250, 61.28, 60.7475, 0.01542
 269, 64.56, 64.036, 0.01542
 289, 67.84, 67.3237, 0.01542
 308, 71.04, 70.5237, 0.01542
 327, 74.208, 73.6307, 0.01542
 346, 77.28, 76.786, 0.01542
 365, 80.56, 80.073, 0.01542
 385, 83.84, 83.3596, 0.01542
 404, 87.04, 86.5608, 0.01542
 423, 90.208, 89.6677, 0.01542
 442, 93.28, 92.818, 0.01542
 461, 96.56, 96.1039, 0.01542
 481, 99.84, 99.3895, 0.01542
 500, 103.04, 102.591, 0.01542
 519, 106.208, 105.699, 0.01542
 538, 109.28, 108.845, 0.01542
 557, 112.56, 112.13, 0.01542
 577, 115.84, 115.415, 0.01542
 596, 119.04, 118.617, 0.01542
 615, 122.208, 121.726, 0.01542
 634, 125.28, 124.867, 0.01542
 653, 128.48, 128.072, 0.01542
 672, 131.76, 131.356, 0.01542
 692, 135.04, 134.638, 0.01542
 711, 138.208, 137.749, 0.01542
 730, 141.28, 140.887, 0.01542
 749, 144.48, 144.09, 0.01542
 768, 147.76, 147.374, 0.01542
 788, 151.04, 150.656, 0.01542
 807, 154.208, 153.769, 0.01542
 826, 157.28, 156.903, 0.01542
 845, 160.48, 160.106, 0.01542
 864, 163.76, 163.389, 0.01542
 884, 167.04, 166.672, 0.01542
 903, 170.208, 169.786, 0.01542
 922, 173.28, 172.917, 0.01542
 941, 176.48, 176.12, 0.01542
 960, 179.76, 179.403, 0.01542
 980, 183.04, 182.685, 0.0154199
 999, 186.208, 185.801, 0.0154199
 1018, 189.28, 188.93, 0.0154198
 1037, 192.48, 192.132, 0.0154197
 1056, 195.76, 195.414, 0.0154196
 1076, 199.04, 198.696, 0.0154194
 1095, 202.208, 201.814, 0.015419
 1114, 205.28, 204.941, 0.0154185
 1133, 208.48, 208.143, 0.0154177
 1152, 211.76, 211.424, 0.0154165
 1172, 215.04, 214.706, 0.0154147
 1191, 218.208, 217.826, 0.0154121
 1210, 221.28, 220.95, 0.0154082
 1229, 224.48, 224.152, 0.0154026
 1248, 227.76, 227.434, 0.0153942
 1268, 231.04, 230.715, 0.0153819
 1287, 234.208, 233.836, 0.0153647
 1306, 237.28, 236.959, 0.01534
 1325, 240.48, 240.16, 0.015305
 1344, 243.76, 243.442, 0.0152541
 1364, 247.04, 246.724, 0.0151822
 1383, 250.208, 249.847, 0.0150848
 1402, 253.28, 252.968, 0.0149509
 1421, 256.48, 256.17, 0.0147695
 1440, 259.76, 259.452, 0.0145206
 1460, 263.04, 262.735, 0.0141935
 1479, 266.208, 265.862, 0.0137868
 1498, 269.28, 268.981, 0.0132842
 1517, 272.48, 272.185, 0.0126879
 1536, 275.76, 275.469, 0.0119941
 1556, 279.04, 278.753, 0.0112484
 1575, 282.208, 281.884, 0.0105132
 1594, 285.28, 285, 0.00981015
 1613, 288.48, 288.204, 0.00917523
 1632, 291.76, 291.486, 0.00861467
 1652, 295.04, 294.769, 0.00815071
 1671, 298.208, 297.9, 0.00778405
 1690, 301.28, 301.012, 0.00748893
 1709, 304.48, 304.214, 0.00725313
 1728, 307.76, 307.495, 0.00706019
 1748, 311.04, 310.776, 0.00690624
 1767, 314.208, 313.907, 0.00678539
 1786, 317.28, 317.017, 0.00668688
 1805, 320.48, 320.218, 0.00660624
 1824, 323.76, 323.498, 0.00653821
 1844, 327.04, 326.78, 0.00648206
 1863, 330.208, 329.91, 0.00643646
 1882, 333.28, 333.02, 0.00639804
 1901, 336.48, 336.22, 0.00636551
 1920, 339.76, 339.501, 0.00633706
 1940, 343.04, 342.782, 0.00631261
 1959, 346.208, 345.913, 0.00629177
 1978, 349.28, 349.022, 0.00627308
 1997, 352.48, 352.222, 0.00625586
 2016, 355.76, 355.502, 0.0062389
 2036, 359.04, 358.784, 0.00622177
 2055, 362.208, 361.915, 0.00620386
 2074, 365.28, 365.023, 0.00618347
 2093, 368.48, 368.224, 0.00615913
 2112, 371.76, 371.504, 0.00612816
 2132, 375.04, 374.785, 0.00608878
 2151, 378.208, 377.917, 0.00603995
 2170, 381.28, 381.025, 0.00597826
 2189, 384.48, 384.225, 0.005902
 2208, 387.76, 387.506, 0.00580783
 2228, 391.04, 390.788, 0.00569841
 2247, 394.208, 393.919, 0.00557994
 2266, 397.28, 397.027, 0.00545367
 2285, 400.48, 400.228, 0.00532504
 2304, 403.76, 403.508, 0.00519573
 2324, 407.04, 406.79, 0.00507337
 2343, 410.208, 409.922, 0.00496338
 2362, 413.28, 413.03, 0.00486348
 2381, 416.48, 416.23, 0.0047742
 2400, 419.76, 419.51, 0.00469316
 2420, 423.04, 422.792, 0.004622
 2439, 426.208, 425.924, 0.00456113
 2458, 429.28, 429.031, 0.00450749
 2477, 432.56, 432.311, 0.00445916
 2497, 435.84, 435.591, 0.00441676
 2516, 439.04, 438.793, 0.00438038
 2535, 442.208, 441.925, 0.00434821
 2554, 445.28, 445.032, 0.00431964
 2573, 448.56, 448.312, 0.00429363
 2593, 451.84, 451.592, 0.00427055
 2612, 455.04, 454.793, 0.00425053
 2631, 458.208, 457.926, 0.00423264
 2650, 461.28, 461.033, 0.00421657
 2669, 464.56, 464.313, 0.00420179
 2689, 467.84, 467.592, 0.00418854
 2708, 471.04, 470.794, 0.00417694
 2727, 474.208, 473.927, 0.00416648
 2746, 477.28, 477.033, 0.00415701
 2765, 480.56, 480.313, 0.00414822
 2785, 483.84, 483.593, 0.00414029
 2804, 487.04, 486.795, 0.00413329
 2823, 490.208, 489.927, 0.00412694
 2842, 493.28, 493.034, 0.00412115
 2861, 496.56, 496.314, 0.00411574
 2881, 499.84, 499.593, 0.00411083
 2900, 503.04, 502.795, 0.00410647
 2919, 506.208, 505.928, 0.00410249
 2938, 509.28, 509.034, 0.00409884
 2957, 512.56, 512.314, 0.00409542
 2977, 515.84, 515.594, 0.00409229
 2996, 519.04, 518.795, 0.00408949
 3015, 522.208, 521.928, 0.00408692
 3034, 525.28, 525.034, 0.00408455
 3053, 528.56, 528.315, 0.0040823
 3073, 531.84, 531.594, 0.00408024
 3092, 535.04, 534.796, 0.00407837
 3111, 538.208, 537.929, 0.00407664
 3130, 541.28, 541.035, 0.00407502
 3149, 544.56, 544.315, 0.00407347
 3169, 547.84, 547.594, 0.00407202
 3188, 551.04, 550.796, 0.00407068
 3207, 554.208, 553.929, 0.00406941
 3226, 557.28, 557.035, 0.00406819
 3245, 560.56, 560.315, 0.00406699
 3265, 563.84, 563.595, 0.00406581
 3284, 567.04, 566.796, 0.00406468
 3303, 570.208, 569.93, 0.00406356
 3322, 573.28, 573.035, 0.00406243
 3341, 576.56, 576.315, 0.00406124
 3361, 579.84, 579.595, 0.00406001
 3380, 583.04, 582.796, 0.00405875
 3399, 586.208, 585.93, 0.00405742
 3418, 589.28, 589.036, 0.00405599
 3437, 592.56, 592.316, 0.0040544
 3457, 595.84, 595.595, 0.00405265
 3476, 599.04, 598.797, 0.00405078
 3495, 602.208, 601.93, 0.00404871
 3514, 605.28, 605.036, 0.0040464
 3533, 608.56, 608.316, 0.00404376
 3553, 611.84, 611.595, 0.00404078
 3572, 615.04, 614.797, 0.00403754
 3591, 618.208, 617.931, 0.00403389
 3610, 621.28, 621.036, 0.00402981
 3629, 624.56, 624.316, 0.0040251
 3649, 627.84, 627.596, 0.00401983
 3668, 631.04, 630.797, 0.0040141
 3687, 634.208, 633.931, 0.00400774
 3706, 637.28, 637.036, 0.00400068
 3725, 640.56, 640.316, 0.00399268
 3745, 643.84, 643.596, 0.00398388
 3764, 647.04, 646.797, 0.00397451
 3783, 650.208, 649.931, 0.00396433
 3802, 653.28, 653.037, 0.00395332
 3821, 656.56, 656.317, 0.00394119
 3841, 659.84, 659.596, 0.00392824
 3860, 663.04, 662.798, 0.00391486
 3879, 666.208, 665.931, 0.0039008
 3898, 669.28, 669.037, 0.00388608
 3917, 672.56, 672.317, 0.00387041
 3937, 675.84, 675.596, 0.00385422
 3956, 679.04, 678.798, 0.00383806
 3975, 682.208, 681.932, 0.00382158
 3994, 685.28, 685.037, 0.00380485
 4013, 688.56, 688.317, 0.00378751
 4033, 691.84, 691.597, 0.00377007
 4052, 695.04, 694.798, 0.00375304
 4071, 698.208, 697.932, 0.00373602
 4090, 701.28, 701.037, 0.00371902
 4109, 704.56, 704.317, 0.00370163
 4129, 707.84, 707.597, 0.00368432
 4148, 711.04, 710.798, 0.0036675
 4167, 714.208, 713.932, 0.00365073
 4186, 717.28, 717.038, 0.00363395
 4205, 720.56, 720.318, 0.0036167
 4225, 723.84, 723.597, 0.00359938
 4244, 727.04, 726.798, 0.00358238
 4263, 730.208, 729.933, 0.0035652
 4282, 733.28, 733.038, 0.00354776
 4301, 736.56, 736.318, 0.00352953
 4321, 739.84, 739.597, 0.0035109
 4340, 743.04, 742.798, 0.0034923
 4359, 746.208, 745.933, 0.00347317
 4378, 749.28, 749.038, 0.00345344
 4397, 752.56, 752.318, 0.00343252
 4417, 755.84, 755.597, 0.00341084
 4436, 759.04, 758.799, 0.00338893
 4455, 762.208, 761.933, 0.0033662
 4474, 765.28, 765.038, 0.00334259
 4493, 768.56, 768.318, 0.00331742
 4513, 771.84, 771.597, 0.00329127
 4532, 775.04, 774.799, 0.00326486
 4551, 778.208, 777.934, 0.00323817
 4570, 781.28, 781.037, 0.00321146
 4589, 784.56, 784.318, 0.00318394
 4609, 787.84, 787.599, 0.00315627
 4628, 791.04, 790.798, 0.00312913
 4647, 794.208, 793.934, 0.0031018
 4666, 797.28, 797.038, 0.0030743
 4685, 800.56, 800.318, 0.00304591
 4705, 803.84, 803.599, 0.00301742
 4724, 807.04, 806.798, 0.0029896
 4743, 810.208, 809.935, 0.00296176
 4762, 813.28, 813.038, 0.00293395
 4781, 816.56, 816.319, 0.00290552
 4800, 819.76, 819.518, 0.00287799